ENVI
description = {
  New spectral library file [Sun Jul 23 13:13:24 2017]}
samples = 512
lines   = 1
bands   = 1
header offset = 0
file type = ENVI Spectral Library
data type = 5
interleave = bsq
sensor type = Unknown
byte order = 0
wavelength units = Nanometers
reflectance scale factor = 1.000000
z plot range = {0.20, 0.25}
z plot titles = {Wavelength, Value}
band names = {
 Spectral Library}
spectra names = {
 X:224 Y:4042}
wavelength = {
  600.820007,  601.580017,  602.349976,  603.109985,  603.869995,  604.640015,
  605.400024,  606.169983,  606.929993,  607.700012,  608.460022,  609.229980,
  610.000000,  610.760010,  611.530029,  612.289978,  613.059998,  613.820007,
  614.590027,  615.359985,  616.119995,  616.890015,  617.650024,  618.419983,
  619.190002,  619.950012,  620.719971,  621.489990,  622.250000,  623.020020,
  623.789978,  624.559998,  625.320007,  626.090027,  626.859985,  627.630005,
  628.390015,  629.159973,  629.929993,  630.700012,  631.460022,  632.229980,
  633.000000,  633.770020,  634.539978,  635.309998,  636.070007,  636.840027,
  637.609985,  638.380005,  639.150024,  639.919983,  640.690002,  641.460022,
  642.229980,  643.000000,  643.770020,  644.530029,  645.299988,  646.070007,
  646.840027,  647.609985,  648.380005,  649.150024,  649.919983,  650.690002,
  651.469971,  652.239990,  653.010010,  653.780029,  654.549988,  655.320007,
  656.090027,  656.859985,  657.630005,  658.400024,  659.169983,  659.950012,
  660.719971,  661.489990,  662.260010,  663.030029,  663.799988,  664.580017,
  665.349976,  666.119995,  666.890015,  667.669983,  668.440002,  669.210022,
  669.979980,  670.760010,  671.530029,  672.299988,  673.070007,  673.849976,
  674.619995,  675.390015,  676.169983,  676.940002,  677.710022,  678.489990,
  679.260010,  680.039978,  680.809998,  681.580017,  682.359985,  683.130005,
  683.909973,  684.679993,  685.460022,  686.229980,  687.000000,  687.780029,
  688.549988,  689.330017,  690.099976,  690.880005,  691.650024,  692.429993,
  693.200012,  693.979980,  694.760010,  695.530029,  696.309998,  697.080017,
  697.859985,  698.640015,  699.409973,  700.190002,  700.960022,  701.739990,
  702.520020,  703.289978,  704.070007,  704.849976,  705.619995,  706.400024,
  707.179993,  707.960022,  708.729980,  709.510010,  710.289978,  711.059998,
  711.840027,  712.619995,  713.400024,  714.179993,  714.950012,  715.729980,
  716.510010,  717.289978,  718.070007,  718.849976,  719.619995,  720.400024,
  721.179993,  721.960022,  722.739990,  723.520020,  724.299988,  725.080017,
  725.859985,  726.640015,  727.409973,  728.190002,  728.969971,  729.750000,
  730.530029,  731.309998,  732.090027,  732.869995,  733.650024,  734.429993,
  735.210022,  735.989990,  736.780029,  737.559998,  738.340027,  739.119995,
  739.900024,  740.679993,  741.460022,  742.239990,  743.020020,  743.799988,
  744.590027,  745.369995,  746.150024,  746.929993,  747.710022,  748.500000,
  749.280029,  750.059998,  750.840027,  751.619995,  752.409973,  753.190002,
  753.969971,  754.750000,  755.539978,  756.320007,  757.099976,  757.890015,
  758.669983,  759.450012,  760.239990,  761.020020,  761.799988,  762.590027,
  763.369995,  764.150024,  764.940002,  765.719971,  766.510010,  767.289978,
  768.070007,  768.859985,  769.640015,  770.429993,  771.210022,  772.000000,
  772.780029,  773.570007,  774.349976,  775.140015,  775.919983,  776.710022,
  777.489990,  778.280029,  779.059998,  779.849976,  780.640015,  781.419983,
  782.210022,  782.989990,  783.780029,  784.570007,  785.349976,  786.140015,
  786.929993,  787.710022,  788.500000,  789.289978,  790.070007,  790.859985,
  791.650024,  792.429993,  793.219971,  794.010010,  794.799988,  795.580017,
  796.369995,  797.159973,  797.950012,  798.729980,  799.520020,  800.309998,
  801.099976,  801.890015,  802.679993,  803.460022,  804.250000,  805.039978,
  805.830017,  806.619995,  807.409973,  808.200012,  808.989990,  809.770020,
  810.559998,  811.349976,  812.140015,  812.929993,  813.719971,  814.510010,
  815.299988,  816.090027,  816.880005,  817.669983,  818.460022,  819.250000,
  820.039978,  820.830017,  821.619995,  822.409973,  823.200012,  824.000000,
  824.789978,  825.580017,  826.369995,  827.159973,  827.950012,  828.739990,
  829.530029,  830.330017,  831.119995,  831.909973,  832.700012,  833.489990,
  834.289978,  835.080017,  835.869995,  836.659973,  837.450012,  838.250000,
  839.039978,  839.830017,  840.619995,  841.419983,  842.210022,  843.000000,
  843.799988,  844.590027,  845.380005,  846.179993,  846.969971,  847.760010,
  848.559998,  849.349976,  850.150024,  850.940002,  851.729980,  852.530029,
  853.320007,  854.119995,  854.909973,  855.710022,  856.500000,  857.299988,
  858.090027,  858.880005,  859.679993,  860.469971,  861.270020,  862.070007,
  862.859985,  863.659973,  864.450012,  865.250000,  866.039978,  866.840027,
  867.640015,  868.429993,  869.229980,  870.020020,  870.820007,  871.619995,
  872.409973,  873.210022,  874.010010,  874.799988,  875.599976,  876.400024,
  877.190002,  877.989990,  878.789978,  879.590027,  880.380005,  881.179993,
  881.979980,  882.780029,  883.570007,  884.369995,  885.169983,  885.969971,
  886.770020,  887.559998,  888.359985,  889.159973,  889.960022,  890.760010,
  891.559998,  892.359985,  893.150024,  893.950012,  894.750000,  895.549988,
  896.349976,  897.150024,  897.950012,  898.750000,  899.549988,  900.349976,
  901.150024,  901.950012,  902.750000,  903.549988,  904.349976,  905.150024,
  905.950012,  906.750000,  907.549988,  908.349976,  909.150024,  909.950012,
  910.750000,  911.549988,  912.359985,  913.159973,  913.960022,  914.760010,
  915.559998,  916.359985,  917.159973,  917.969971,  918.770020,  919.570007,
  920.369995,  921.169983,  921.979980,  922.780029,  923.580017,  924.380005,
  925.190002,  925.989990,  926.789978,  927.590027,  928.400024,  929.200012,
  930.000000,  930.809998,  931.609985,  932.409973,  933.219971,  934.020020,
  934.820007,  935.630005,  936.429993,  937.239990,  938.039978,  938.840027,
  939.650024,  940.450012,  941.260010,  942.059998,  942.869995,  943.669983,
  944.479980,  945.280029,  946.090027,  946.890015,  947.700012,  948.500000,
  949.309998,  950.109985,  950.919983,  951.719971,  952.530029,  953.340027,
  954.140015,  954.950012,  955.750000,  956.559998,  957.369995,  958.169983,
  958.979980,  959.789978,  960.590027,  961.400024,  962.210022,  963.010010,
  963.820007,  964.630005,  965.429993,  966.239990,  967.049988,  967.859985,
  968.659973,  969.469971,  970.280029,  971.090027,  971.890015,  972.700012,
  973.510010,  974.320007,  975.130005,  975.940002,  976.739990,  977.549988,
  978.359985,  979.169983,  979.979980,  980.789978,  981.599976,  982.409973,
  983.219971,  984.030029,  984.830017,  985.640015,  986.450012,  987.260010,
  988.070007,  988.880005,  989.690002,  990.500000,  991.309998,  992.119995,
  992.929993,  993.739990,  994.559998,  995.369995,  996.179993,  996.989990,
  997.799988,  998.609985,  999.419983, 1000.229980, 1001.039978, 1001.849976,
 1002.669983, 1003.479980}
